Folder: IBR-AIC/examples/output/analysis/Standard XAFS spectra of oxides

Note: README.md
#Iterative Bragg peak Removal of X-ray Absorption Spectrum (IBR-XAS)

This package amims to provide a method of removing Bragg peaks from X-ray absorption spectra.
This method can be applied for both transmission and fluorescence mode of XAS, with the aid of varing a angle of sample.

<!-- .. image:: https://img.shields.io/pypi/v/ibr_xas.svg -->
<!-- :target: https://pypi.python.org/pypi/ibr_xas -->
<!---->
<!-- .. image:: https://img.shields.io/travis/Ameyanagi/ibr_xas.svg -->
<!-- :target: https://travis-ci.com/Ameyanagi/ibr_xas -->
<!---->
<!-- .. image:: https://readthedocs.org/projects/ibr-xas/badge/?version=latest -->
<!-- :target: https://ibr-xas.readthedocs.io/en/latest/?version=latest -->
<!-- :alt: Documentation Status -->
<!---->

## Features

-   TODO

## Limitations

This method has a limitation when there is a significant change in the trend in the post-edge region, where the assumption that following assumption is not valid anymore.
The effect of large angle rotation of the sample is expressed in the following equation, as long as the sample is uniform.

$$ \mu*0(E) \propto I*{F}/I*{0}$$
$$ \mu(E) \propto -\ln(I*{T}/I\_{0})$$

## References

File: Cu2O.nor
# XDI/1.0 Athena/0.9.26
# Element.edge:                  K
# Element.symbol:                Cu
# Column.1:                      energy eV
# Column.2:                      norm
# Column.3:                      nbkg
# Column.4:                      flat
# Column.5:                      fbkg
# Column.6:                      nder
# Column.7:                      nsec
# Athena.e0:                     8978.207
# Athena.eshift:                 0
# Athena.rbkg:                   1.0
# Athena.importance:             1
# Athena.standard:               None
# Athena.bkg_kweight:            1
# Athena.edge_step:              1.11012
# Athena.fixed_step:             no
# Athena.pre_edge_range:         -150 -75
# Athena.pre_edge_line:          6.015441 - 0.000662077 * E
# Athena.normalization_range:    150 692.0118
# Athena.post_edge_polynomial:   28.6594 - 0.00505437 * E + 2.22076e-07 * E^2 + 0 * E^3
# Athena.spline_range_energy:    0.952 792.015
# Athena.clamps:                 0 24
# Athena.spline_range_k:         0.500 14.418
# Athena.kweight:                2
# Athena.window:                 kaiser-bessel
# Athena.phase_correction:       no
# Athena.k_range:                2 14.418
# Athena.dk:                     0
# Athena.r_range:                1 3
# Athena.dr:                     0
# Athena.window:                 kaiser-bessel
# Athena.plot_multiplier:        1
# Athena.y_offset:               0
# ///
#------------------------
#   e         norm       nbkg       flat       fbkg       nder       nsec
  8770.2      -0.000160454  -0.000160454  -0.000160454  -0.000160454   9.01835e-05  -2.55994e-06
  8830.21       0.000548872   0.000548872   0.000548872   0.000548872   7.34246e-05   7.13719e-07
  8890.2       6.79846e-05   6.79846e-05   6.79846e-05   6.79846e-05   2.15164e-06  -3.24972e-06
  8950.2      -0.00485596  -0.00485596  -0.00485596  -0.00485596   0.000120737  -9.28065e-07
  8953.22      -0.00510994  -0.00510994  -0.00510994  -0.00510994   0.00037333   0.00127619
  8956.21      -0.00396423  -0.00396423  -0.00396423  -0.00396423  -0.000378669   0.000297264
  8959.22      -0.00308407  -0.00308407  -0.00308407  -0.00308407   0.000115327   0.000195315
  8962.21      -0.00147233  -0.00147233  -0.00147233  -0.00147233   0.000548838   7.21219e-05
  8965.21       0.00114797   0.00114797   0.00114797   0.00114797   0.00100747   0.000237912
  8968.21       0.00523637   0.00523637   0.00523637   0.00523637   0.00166425   0.000461854
  8971.2       0.0132314   0.0132314   0.0132314   0.0132314   0.00349433   0.000869674
  8974.2       0.0343992   0.0343992   0.0343992   0.0343992   0.0116296   0.00328174
  8977.21       0.189753       0.189753       0.189753       0.189753       0.183868       0.10814
  8980.21       0.541853       0.490978       0.542582       0.491707      -0.110679      -0.0242299
  8983.22       0.511254       0.676742       0.513075       0.678563       0.0647238   0.0301115
  8986.2       0.693294       0.806802       0.696194       0.809702       0.0637554   0.00648369
  8989.21       0.931476       0.892722       0.935462       0.896707       0.0952162   0.00639721
  8992.22        1.11028       0.942231        1.11535       0.9473       0.0194675  -0.00999149
  8995.21        1.07231       0.964461        1.07845       0.9706      -0.0420747   0.00312622
  8998.2       0.949686       0.969039       0.956891       0.976245      -0.0314058   0.0166189
  9001.22       0.91358       0.964977       0.921861       0.973257       0.00639134   0.0108511
  9004.21       0.946315       0.960025       0.955657       0.969367       0.0125409   0.0028546
  9007.2       0.987661       0.955692       0.998061       0.966092       0.0125622  -0.00355845
  9010.2       0.994768       0.951945        1.00622       0.963401      -0.00333865  -0.000626141
  9022.21       0.878444       0.942152       0.894094       0.957802      -0.00449593   0.00126562
  9034.22       0.908026       0.939054       0.927814       0.958842       0.00797573  -6.9043e-05
  9046.21       0.980105       0.94043        1.00397       0.964291      -0.00258333  -0.00155637
  9058.21       0.958241       0.944063       0.986117       0.97194      -0.00132223  -7.32898e-07
  9070.2       0.971375       0.947752        1.00321       0.979589       0.00202968  -0.000204677
  9082.21       0.980762       0.95003        1.0165       0.985771      -0.000979351  -0.000545615
  9094.21       0.935657       0.950911       0.975246       0.9905      -0.0043334   0.000251145
  9106.22       0.914675       0.950584       0.958055       0.993964       0.00133183   0.0003951
  9118.21       0.939009       0.949242       0.986114       0.996348       0.000842642  -0.000219572
  9130.2       0.944662       0.947074       0.995437       0.997849       0.000384834   7.47049e-05
  9142.22       0.95414       0.944262        1.00854       0.998658      -0.000182294  -0.000288402
  9154.21       0.941017       0.941007       0.998969       0.99896      -0.00115508   8.2391e-05
  9166.21       0.935548       0.937494       0.997       0.998946       0.000178838   2.0541e-05
  9178.21       0.937114       0.933912        1.00201       0.998807       0.000119583   3.3196e-07
  9190.22       0.936318       0.930413        1.0046       0.998693      -0.000417687  -2.84056e-05
  9202.2       0.930148       0.927025        1.00175       0.998627      -0.000588083  -3.58549e-05
  9214.21       0.921169       0.923729       0.996043       0.998603      -0.000736045   2.98145e-05
  9226.22       0.915566       0.920528       0.993656       0.998617      -0.000232537   1.6862e-05
  9238.21       0.914217       0.917425       0.995457       0.998665       0.000103926   2.2334e-05
  9250.2       0.91432       0.914408       0.998654       0.998742       3.70841e-06   3.25281e-06
  9262.22       0.913604       0.911465        1.00098       0.998843      -4.75669e-05  -1.25496e-05
  9274.21       0.912205       0.908606        1.00256       0.998964      -0.000202374   2.02403e-05
  9286.21       0.908213       0.905819        1.00149       0.999099      -0.000394704  -4.98272e-06
  9298.2       0.904803       0.9031        1.00095       0.999246      -0.000222393  -1.45261e-05
  9310.2       0.901522       0.900444        1.00048       0.999397      -0.000271025   2.1913e-05
  9322.2       0.898604       0.897845        1.00031       0.99955      -0.000285093  -8.16649e-06
  9334.21       0.895708       0.895301        1.00011       0.9997      -0.000191314   2.01899e-05
  9346.21       0.893032       0.892807        1.00007       0.999842      -0.000225082  -1.07483e-05
  9358.21       0.890125       0.890362       0.999739       0.999977      -0.000209133  -8.23754e-07
  9370.22       0.886427       0.887966       0.998563        1.0001      -0.000272572   5.5225e-05
  9382.2       0.884234       0.885623       0.998828        1.00022      -0.000327523  -2.32375e-05
  9394.21       0.881479       0.883322       0.99848        1.00032      -0.000168206  -3.758e-05
  9406.21       0.879519       0.881066       0.998869        1.00042       2.41687e-07  -3.455e-05
  9418.22       0.8769       0.878856       0.998542        1.0005      -4.52946e-05   6.11999e-05
  9430.2       0.875856       0.876696       0.999726        1.00057      -8.79001e-05   4.36313e-06
  9442.21       0.87466       0.874574        1.00071        1.00062      -0.000109505  -1.0864e-06
  9454.2       0.873101       0.8725        1.00126        1.00066      -0.000163281  -1.42963e-06
  9466.21       0.870979       0.870463        1.0012        1.00069      -0.000243473  -9.59525e-06
  9478.22       0.868596       0.868468        1.00082        1.00069      -0.000182487   1.23739e-05
  9490.2       0.86664       0.866518        1.00081        1.00069      -0.000183351  -7.596e-06
  9502.21       0.864901       0.864603        1.00096        1.00066      -0.000128544  -1.70544e-06
  9514.22       0.863488       0.862727        1.00137        1.00061      -0.000107325  -1.14831e-06
  9526.2       0.862183       0.860895        1.00184        1.00055      -9.26451e-05   2.12555e-05
  9538.21       0.860665       0.859095        1.00204        1.00047      -0.00011035   1.25001e-05
  9550.22       0.859306       0.85734        1.00233        1.00037      -0.000212633   2.85261e-05
  9562.2       0.856705       0.855643        1.00133        1.00027      -0.000240306   2.5422e-05
  9574.21       0.854696       0.854006        1.00086        1.00017      -0.000186002  -1.27197e-05
  9586.21       0.850782       0.852444       0.998433        1.00009      -0.000352179   0.000107331
  9598.22       0.849043       0.850966       0.998119        1.00004      -0.00016808  -0.000129932
  9610.23       0.845695       0.849583       0.99614        1.00003      -0.000304678   7.0614e-05
  9622.2       0.845367       0.848308       0.99712        1.00006      -8.08097e-05   1.79978e-05
  9634.2       0.845291       0.847144       0.998296        1.00015      -7.39645e-06  -8.14162e-06
  9646.2       0.845912       0.846104        1.00011        1.00031       6.28294e-05  -4.68779e-05
  9658.2       0.847114       0.8452        1.00245        1.00054       0.000132063  -0.000117852
  9670.2       0.845956       0.84444        1.00237        1.00086      -6.96937e-05   3.9147e-05
  9682.22       0.84607       0.843834        1.00351        1.00128      -0.000128699  -1.7002e-05
  9694.22       0.844874       0.843394        1.00328        1.0018      -1.7738e-05   4.51983e-06
  9706.21       0.844357       0.843129        1.00367        1.00244      -2.07093e-05   6.02655e-06
  9718.19       0.844424       0.843048        1.00459        1.00321       3.64028e-05   1.15025e-05
  9730.21       0.844682       0.843163        1.00564        1.00412      -1.64329e-05  -2.7021e-06
  9742.2       0.844661       0.843482        1.00635        1.00517       7.97019e-06   3.55016e-06
  9754.21       0.844579       0.844018        1.00695        1.00639      -1.63867e-05  -9.25491e-07
  9766.22       0.844382       0.844779        1.00737        1.00777      -5.86566e-06   1.26682e-05
  9770.22       0.844432       0.845084        1.00761        1.00826      -5.21204e-06  -8.87759e-06

File: CuO.nor
# XDI/1.0 Athena/0.9.26
# Element.edge:                  K
# Element.symbol:                Cu
# Column.1:                      energy eV
# Column.2:                      norm
# Column.3:                      nbkg
# Column.4:                      flat
# Column.5:                      fbkg
# Column.6:                      nder
# Column.7:                      nsec
# Athena.e0:                     8981.251
# Athena.eshift:                 0
# Athena.rbkg:                   1.0
# Athena.importance:             1
# Athena.standard:               None
# Athena.bkg_kweight:            1
# Athena.edge_step:              0.6384147
# Athena.fixed_step:             no
# Athena.pre_edge_range:         -150 -75
# Athena.pre_edge_line:          6.214196 - 0.000693142 * E
# Athena.normalization_range:    150 689.508
# Athena.post_edge_polynomial:   19.4115 - 0.003541 * E + 1.61393e-07 * E^2 + 0 * E^3
# Athena.spline_range_energy:    0.952 789.490
# Athena.clamps:                 0 24
# Athena.spline_range_k:         0.500 14.395
# Athena.kweight:                2
# Athena.window:                 kaiser-bessel
# Athena.phase_correction:       no
# Athena.k_range:                2 14.395
# Athena.dk:                     0
# Athena.r_range:                1 3
# Athena.dr:                     0
# Athena.window:                 kaiser-bessel
# Athena.plot_multiplier:        1
# Athena.y_offset:               0
# ///
#------------------------
#   e         norm       nbkg       flat       fbkg       nder       nsec
  8770.74       0.0117273   0.0117273   0.0117273   0.0117273  -7.20182e-05  -1.76914e-06
  8820.76       0.00292303   0.00292303   0.00292303   0.00292303  -0.00020119   1.63617e-05
  8870.75      -0.00060579  -0.00060579  -0.00060579  -0.00060579   6.38515e-05  -8.48856e-07
  8920.75       0.00210157   0.00210157   0.00210157   0.00210157   0.000123938   6.55654e-06
  8951.74       0.0112318   0.0112318   0.0112318   0.0112318   0.000569256  -0.000155893
  8954.25       0.0134072   0.0134072   0.0134072   0.0134072   0.00062571  -0.000219096
  8956.75       0.0153362   0.0153362   0.0153362   0.0153362   0.00094343   9.29584e-05
  8959.24       0.0175137   0.0175137   0.0175137   0.0175137   0.0011394  -0.000253563
  8961.76       0.0201061   0.0201061   0.0201061   0.0201061   0.00121797  -0.000201674
  8964.25       0.0234131   0.0234131   0.0234131   0.0234131   0.00147768  -0.000210072
  8966.75       0.0277397   0.0277397   0.0277397   0.0277397   0.00211653   0.000682985
  8969.24       0.0338704   0.0338704   0.0338704   0.0338704   0.00289834   0.00101673
  8971.74       0.0433706   0.0433706   0.0433706   0.0433706   0.00457275  -7.71834e-05
  8974.24       0.0640279   0.0640279   0.0640279   0.0640279   0.0164308   0.00455738
  8976.75       0.094757   0.094757   0.094757   0.094757   0.0147208   0.0199685
  8979.25       0.174952       0.174952       0.174952       0.174952       0.0484648   0.0520065
  8981.75       0.494257       0.494257       0.494217       0.494217       0.119773      -0.062889
  8984.26       0.621149       0.820782       0.620906       0.820538       0.00118319   0.0104608
  8986.74       0.733676       0.896379       0.733229       0.895932       0.0823328   0.0184305
  8989.25       0.973481       0.952361       0.972824       0.951704       0.0746467  -0.0332369
  8991.76        1.0889       0.990752        1.08803       0.989882       0.0352027  -0.00424989
  8994.24        1.17532        1.01435        1.17424        1.01326       0.035754  -0.0159908
  8996.75        1.17979        1.02668        1.17848        1.02538      -0.0167453  -0.00487445
  8999.24        1.11065        1.03042        1.10913        1.0289      -0.034558   0.00209493
  9004.75       0.993524        1.02355       0.991501        1.02152      -0.00715976   0.00458443
  9014.75       0.988458        1.00923       0.98549        1.00626      -0.00532481  -0.00155387
  9024.74       0.912213        1.00081       0.908249       0.99685      -0.000381981   0.00213483
  9034.76       0.985216       0.997121       0.980204       0.992109       0.00954432  -0.000173922
  9044.75        1.05099       0.996998        1.04489       0.99089       0.00390684  -0.000595822
  9054.75        1.04303       0.999269        1.03578       0.992012      -0.003242   0.000136714
  9064.75        1.01858        1.00277        1.01013       0.994311      -0.00171852   0.00019368
  9074.75        1.0046        1.00634       0.994892       0.996637      -0.00104886   0.000225674
  9084.74        1.00147        1.00941       0.990469       0.99841      -0.000459369   5.43483e-05
  9094.75        1.00014        1.01202       0.987785       0.999667      -3.16479e-05  -3.98292e-05
  9104.76       0.998445        1.01422       0.984691        1.00047      -0.00022835   0.000125964
  9114.76        1.0034        1.01609       0.988195        1.00088      -0.000302939   1.7569e-05
  9124.75        1.01393        1.01768       0.997224        1.00098       0.00296384   5.7273e-05
  9134.74        1.02953        1.01907        1.01127        1.00081       0.000474668  -0.000180489
  9144.75        1.02953        1.02032        1.00967        1.00046      -0.000396112   1.43303e-05
  9154.75        1.0299        1.02149        1.00839       0.999975      -0.000575025  -0.000351841
  9164.75        1.02108        1.02265       0.997858       0.999434      -0.00063882  -0.000263787
  9174.74        1.01293        1.02387       0.987964       0.998898      -7.88926e-05   9.48958e-05
  9184.75        1.02117        1.02521       0.994389       0.998431       0.0012894  -9.6543e-05
  9194.76        1.02548        1.0267       0.99684       0.998064      -6.64735e-05  -0.000166939
  9204.76        1.02451        1.02833       0.993966       0.99779       0.000254571  -2.65623e-05
  9214.75        1.02588        1.0301       0.99338       0.997603       0.00118465   0.00017506
  9224.76        1.03609        1.032        1.00159       0.997494       0.000608605  -5.23113e-05
  9234.74        1.03825        1.03402        1.00169       0.997457       2.66608e-05  -0.000138266
  9244.74        1.0389        1.03615        1.00023       0.997484       0.000469753   4.04867e-05
  9254.76        1.04497        1.0384        1.00414       0.997568       0.00049928  -7.21474e-05
  9264.74        1.0473        1.04074        1.00426       0.997702       5.4688e-05  -2.9407e-05
  9274.75        1.04538        1.04318        1.00008       0.997877      -0.00022161   6.76815e-05
  9284.75        1.04659        1.0457       0.998977       0.998088       0.000315175  -2.53213e-05
  9294.74        1.04931        1.0483       0.999343       0.998326       0.000216465   1.53724e-05
  9304.75        1.05187        1.05097       0.999486       0.998585      -7.70253e-06  -6.98975e-05
  9314.76        1.05134        1.0537       0.996495       0.998857      -0.00014487   3.74819e-05
  9324.76        1.05378        1.05649       0.996422       0.999133       0.000436842   1.73139e-05
  9334.75        1.05835        1.05933       0.998433       0.999408       0.000290099  -3.39959e-05
  9344.76        1.06058        1.06221       0.998041       0.999676       0.000113919  -6.98646e-05
[...]
  9424.75        1.08616        1.08658        1.00089        1.00131      -2.51581e-05   6.98769e-05
  9434.74        1.08756        1.08976       0.999225        1.00143       0.000209389   2.56296e-05
  9444.76        1.09144        1.09298       0.999985        1.00152       0.00014059  -7.40817e-05
  9454.74        1.09396        1.09621       0.999341        1.00158       0.000308405  -1.94607e-05
  9464.76        1.09782        1.09947       0.999966        1.00162       0.000360406  -1.18708e-05
  9474.75        1.10307        1.10275        1.00196        1.00163       0.000465083  -8.46835e-05
  9484.76        1.10608        1.10605        1.00163        1.0016       0.000327438  -1.18252e-05
  9494.76        1.1089        1.10936        1.00108        1.00154       0.000267253   2.91497e-05
  9504.75        1.11146        1.11268        1.00022        1.00145       0.0002286   2.95109e-05
  9514.76        1.11569        1.11603        1.00098        1.00132       0.000335451  -9.68115e-05
  9524.76        1.117        1.11939       0.998765        1.00115       0.000386159   1.83043e-05
  9534.76        1.12065        1.12275       0.998841        1.00094       0.000530873   1.34588e-05
  9544.74        1.12573        1.12612        1.0003        1.00069       0.000480365  -7.35936e-05
  9554.74        1.13069        1.12952        1.00158        1.00042       0.000285045  -8.49884e-05
  9564.76        1.13437        1.13296        1.00153        1.00012       0.000463484   2.63005e-06
  9574.75        1.13802        1.13642        1.00141       0.999812       0.000414348   6.51797e-05
  9584.75        1.143        1.13994        1.00256       0.999499       0.000477111  -4.57126e-05
  9594.75        1.14603        1.14351        1.00171       0.999191       0.000336373   1.8891e-05
  9604.76        1.14912        1.14715        1.00087       0.998896       0.000345938   3.81253e-05
  9614.76        1.15269        1.15085        1.00046       0.998623       0.000526123   2.34227e-05
  9624.76        1.15579        1.15464       0.999528       0.99838       0.00018306   6.86859e-05
  9634.74        1.15928        1.15851       0.998945       0.998177       0.00022611   5.75845e-05
  9644.74        1.16216        1.16248       0.997699       0.99802       0.000406584   6.78725e-05
  9654.74        1.1661        1.16656       0.997458       0.99792       0.000278988  -1.56562e-06
  9664.75        1.16992        1.17077       0.997043       0.997885       0.00033957  -2.54704e-05
  9674.75        1.17251        1.17509       0.99535       0.997922       0.000469166   5.87148e-05
  9684.74        1.17734        1.17953       0.995844       0.998041       0.000156869  -4.81044e-05
  9694.76        1.18077        1.18413       0.994885       0.998251       0.000292598  -1.62716e-05
  9704.76        1.18497        1.18888       0.994654       0.99856       0.000690342  -3.08491e-05
  9716.74        1.19274        1.19477       0.997039       0.999072       0.0012813   0.000165069
  9726.75        1.20239        1.19988        1.00214       0.999629       0.000665755  -5.64535e-06
  9736.76        1.20985        1.20516        1.005        1.00031       0.000422556  -0.000154634
  9746.75        1.21397        1.21062        1.00448        1.00113       0.000229505  -7.43809e-05
  9756.76        1.21823        1.21628        1.00404        1.00209       0.000491471   7.42911e-05
  9766.76        1.22336        1.22214        1.00442        1.0032       0.000535337   7.79172e-06
  9770.76        1.22481        1.22454        1.00396        1.00369      -0.00016286  -0.000261775